Folder: Validation-of-textile-electrodes-for-FES/Data (part 2)

File: LIST0423.CSV
"LIST MEAS DATA"

"File name","LIST0423.CSV"

"Model","LCR-6300","REV E8.11"

"Log Time","2024-06-04 21:34:20"

"FREQ[Hz]","LMT","Z(OHM)","Phase-d( )","CMP"
+1.000E+01,-,+3.15453E+04,-3.49202E+01,-
+2.000E+01,-,+2.28965E+04,-4.65260E+01,-
+3.000E+01,-,+1.80426E+04,-5.26999E+01,-
+4.000E+01,-,+1.49450E+04,-5.66068E+01,-
+5.000E+01,-,+1.27851E+04,-5.92944E+01,-
+6.000E+01,-,+1.12156E+04,-6.12504E+01,-
+7.000E+01,-,+1.00080E+04,-6.27123E+01,-
+8.000E+01,-,+9.05061E+03,-6.38915E+01,-
+9.000E+01,-,+8.26802E+03,-6.48895E+01,-
+1.000E+02,-,+7.61868E+03,-6.56954E+01,-
+1.000E+01,-,+3.15366E+04,-3.51649E+01,-
+2.000E+01,-,+2.24230E+04,-4.71092E+01,-
+3.000E+01,-,+1.75039E+04,-5.30656E+01,-
+4.000E+01,-,+1.44599E+04,-5.68141E+01,-
+5.000E+01,-,+1.24016E+04,-5.94531E+01,-
+6.000E+01,-,+1.08565E+04,-6.14472E+01,-
+7.000E+01,-,+9.67869E+03,-6.28859E+01,-
+8.000E+01,-,+8.74549E+03,-6.40264E+01,-
+9.000E+01,-,+7.98745E+03,-6.49609E+01,-
+1.000E+02,-,+7.35337E+03,-6.57079E+01,-
+1.000E+01,-,+3.00471E+04,-3.45194E+01,-
+2.000E+01,-,+2.18549E+04,-4.61735E+01,-
+3.000E+01,-,+1.72487E+04,-5.24068E+01,-
+4.000E+01,-,+1.43077E+04,-5.62371E+01,-
+5.000E+01,-,+1.22309E+04,-5.89565E+01,-
+6.000E+01,-,+1.07350E+04,-6.10075E+01,-
+7.000E+01,-,+9.58064E+03,-6.25216E+01,-
+8.000E+01,-,+8.66263E+03,-6.37761E+01,-
+9.000E+01,-,+7.91471E+03,-6.47942E+01,-
+1.000E+02,-,+7.29905E+03,-6.56309E+01,-
+1.000E+01,-,+2.97924E+04,-3.43730E+01,-
+2.000E+01,-,+2.17620E+04,-4.61328E+01,-
+3.000E+01,-,+1.71864E+04,-5.24539E+01,-
+4.000E+01,-,+1.42485E+04,-5.65243E+01,-
+5.000E+01,-,+1.22221E+04,-5.93188E+01,-
+6.000E+01,-,+1.07152E+04,-6.13217E+01,-
+7.000E+01,-,+9.56105E+03,-6.28415E+01,-
+8.000E+01,-,+8.64352E+03,-6.40694E+01,-
+9.000E+01,-,+7.89944E+03,-6.50544E+01,-
+1.000E+02,-,+7.27473E+03,-6.58808E+01,-
+1.000E+01,-,+3.00149E+04,-3.48176E+01,-
+2.000E+01,-,+2.18266E+04,-4.66273E+01,-
+3.000E+01,-,+1.72018E+04,-5.29153E+01,-
+4.000E+01,-,+1.42487E+04,-5.68082E+01,-
+5.000E+01,-,+1.22199E+04,-5.95822E+01,-
+6.000E+01,-,+1.07059E+04,-6.16795E+01,-
+7.000E+01,-,+9.54550E+03,-6.31487E+01,-
+8.000E+01,-,+8.62872E+03,-6.43651E+01,-
+9.000E+01,-,+7.87852E+03,-6.53309E+01,-
+1.000E+02,-,+7.25813E+03,-6.61419E+01,-
+1.000E+01,-,+3.03417E+04,-3.53719E+01,-
+2.000E+01,-,+2.19190E+04,-4.70584E+01,-
+3.000E+01,-,+1.72314E+04,-5.32730E+01,-
+4.000E+01,-,+1.42660E+04,-5.72526E+01,-
+5.000E+01,-,+1.21971E+04,-5.99842E+01,-
+6.000E+01,-,+1.06810E+04,-6.18449E+01,-
+7.000E+01,-,+9.51307E+03,-6.32158E+01,-
+8.000E+01,-,+8.59088E+03,-6.43560E+01,-
+9.000E+01,-,+7.84406E+03,-6.52954E+01,-
+1.000E+02,-,+7.22133E+03,-6.60784E+01,-
+1.000E+01,-,+2.98827E+04,-3.49073E+01,-
+2.000E+01,-,+2.14051E+04,-4.59201E+01,-
+3.000E+01,-,+1.68254E+04,-5.18904E+01,-
+4.000E+01,-,+1.39342E+04,-5.56554E+01,-
+5.000E+01,-,+1.19711E+04,-5.84960E+01,-
+6.000E+01,-,+1.05121E+04,-6.07388E+01,-
+7.000E+01,-,+9.38808E+03,-6.23330E+01,-
+8.000E+01,-,+8.49475E+03,-6.36444E+01,-
+9.000E+01,-,+7.76086E+03,-6.46700E+01,-
+1.000E+02,-,+7.15340E+03,-6.55502E+01,-
+1.000E+01,-,+2.87007E+04,-3.34716E+01,-
+2.000E+01,-,+2.11499E+04,-4.53360E+01,-
+3.000E+01,-,+1.67801E+04,-5.18286E+01,-
+4.000E+01,-,+1.39518E+04,-5.60428E+01,-
+5.000E+01,-,+1.19754E+04,-5.89410E+01,-
+6.000E+01,-,+1.05110E+04,-6.10220E+01,-
+7.000E+01,-,+9.38371E+03,-6.25941E+01,-
+8.000E+01,-,+8.48461E+03,-6.38643E+01,-
+9.000E+01,-,+7.75469E+03,-6.48687E+01,-
+1.000E+02,-,+7.13975E+03,-6.56876E+01,-
+1.000E+01,-,+2.86735E+04,-3.35278E+01,-
+2.000E+01,-,+2.10646E+04,-4.53398E+01,-
+3.000E+01,-,+1.66285E+04,-5.14701E+01,-
+4.000E+01,-,+1.37427E+04,-5.49818E+01,-
+5.000E+01,-,+1.17477E+04,-5.75084E+01,-
+6.000E+01,-,+1.02996E+04,-5.95076E+01,-
+7.000E+01,-,+9.19773E+03,-6.10372E+01,-
+8.000E+01,-,+8.33054E+03,-6.24197E+01,-
+9.000E+01,-,+7.61963E+03,-6.35512E+01,-
+1.000E+02,-,+7.03293E+03,-6.45368E+01,-
+1.000E+01,-,+2.65559E+04,-3.08657E+01,-
+2.000E+01,-,+2.01236E+04,-4.29164E+01,-
+3.000E+01,-,+1.61777E+04,-4.97413E+01,-
+4.000E+01,-,+1.35394E+04,-5.42178E+01,-
+5.000E+01,-,+1.16968E+04,-5.73433E+01,-
+6.000E+01,-,+1.02845E+04,-5.96123E+01,-
+7.000E+01,-,+9.20262E+03,-6.13422E+01,-
+8.000E+01,-,+8.32831E+03,-6.26860E+01,-
+9.000E+01,-,+7.61204E+03,-6.37851E+01,-
+1.000E+02,-,+7.01845E+03,-6.46615E+01,-

File: LIST0424.CSV
"LIST MEAS DATA"

"File name","LIST0424.CSV"

"Model","LCR-6300","REV E8.11"

"Log Time","2024-06-04 21:37:23"

"FREQ[Hz]","LMT","Z(OHM)","Phase-d( )","CMP"
+1.000E+01,-,+1.12964E+05,-1.65604E+01,-
+2.000E+01,-,+9.82587E+04,-2.15428E+01,-
+3.000E+01,-,+8.65823E+04,-2.44869E+01,-
+4.000E+01,-,+7.89313E+04,-2.69541E+01,-
+5.000E+01,-,+7.06565E+04,-3.00564E+01,-
+6.000E+01,-,+6.62253E+04,-3.09523E+01,-
+7.000E+01,-,+5.99126E+04,-3.26029E+01,-
+8.000E+01,-,+5.33051E+04,-3.45200E+01,-
+9.000E+01,-,+5.04007E+04,-3.62217E+01,-
+1.000E+02,-,+4.84509E+04,-3.71282E+01,-
+1.000E+01,-,+9.41517E+04,-1.72372E+01,-
+2.000E+01,-,+8.21008E+04,-2.28706E+01,-
+3.000E+01,-,+7.38846E+04,-2.66410E+01,-
+4.000E+01,-,+6.68420E+04,-3.00749E+01,-
+5.000E+01,-,+6.31919E+04,-3.18056E+01,-
+6.000E+01,-,+5.84484E+04,-3.37899E+01,-
+7.000E+01,-,+5.47069E+04,-3.54707E+01,-
+8.000E+01,-,+5.18231E+04,-3.68554E+01,-
+9.000E+01,-,+4.97456E+04,-3.78416E+01,-
+1.000E+02,-,+4.70990E+04,-3.91251E+01,-
+1.000E+01,-,+9.48072E+04,-1.82482E+01,-
+2.000E+01,-,+8.04266E+04,-2.43379E+01,-
+3.000E+01,-,+7.14422E+04,-2.78937E+01,-
+4.000E+01,-,+6.50539E+04,-2.98363E+01,-
+5.000E+01,-,+5.99169E+04,-3.24710E+01,-
+6.000E+01,-,+5.64683E+04,-3.49233E+01,-
+7.000E+01,-,+5.27084E+04,-3.65075E+01,-
+8.000E+01,-,+4.96419E+04,-3.80451E+01,-
+9.000E+01,-,+4.64476E+04,-3.91565E+01,-
+1.000E+02,-,+4.44066E+04,-4.03166E+01,-
+1.000E+01,-,+9.24200E+04,-1.89511E+01,-
+2.000E+01,-,+7.89600E+04,-2.50295E+01,-
+3.000E+01,-,+7.02031E+04,-2.89959E+01,-
+4.000E+01,-,+6.35763E+04,-3.24303E+01,-
+5.000E+01,-,+5.83096E+04,-3.48796E+01,-
+6.000E+01,-,+5.42112E+04,-3.61817E+01,-
+7.000E+01,-,+5.01874E+04,-3.74207E+01,-
+8.000E+01,-,+4.70257E+04,-3.86597E+01,-
+9.000E+01,-,+4.46093E+04,-3.98541E+01,-
+1.000E+02,-,+4.22408E+04,-4.08246E+01,-
+1.000E+01,-,+9.01014E+04,-1.94370E+01,-
+2.000E+01,-,+7.63300E+04,-2.57770E+01,-
+3.000E+01,-,+6.74425E+04,-2.97401E+01,-
+4.000E+01,-,+5.95797E+04,-3.23594E+01,-
+5.000E+01,-,+5.43495E+04,-3.43995E+01,-
+6.000E+01,-,+5.01300E+04,-3.67583E+01,-
+7.000E+01,-,+4.59732E+04,-3.81593E+01,-
+8.000E+01,-,+4.31072E+04,-3.93718E+01,-
+9.000E+01,-,+4.03242E+04,-4.01736E+01,-
+1.000E+02,-,+3.79940E+04,-4.11146E+01,-
+1.000E+01,-,+7.81668E+04,-1.89997E+01,-
+2.000E+01,-,+6.41301E+04,-2.47472E+01,-
+3.000E+01,-,+5.55468E+04,-2.83094E+01,-
+4.000E+01,-,+5.07619E+04,-3.15211E+01,-
+5.000E+01,-,+4.60812E+04,-3.42195E+01,-
+6.000E+01,-,+4.26667E+04,-3.57990E+01,-
+7.000E+01,-,+3.93792E+04,-3.69758E+01,-
+8.000E+01,-,+3.70295E+04,-3.82219E+01,-
+9.000E+01,-,+3.47079E+04,-3.94911E+01,-
+1.000E+02,-,+3.28367E+04,-4.04708E+01,-
+1.000E+01,-,+6.89582E+04,-1.88685E+01,-
+2.000E+01,-,+5.84286E+04,-2.54353E+01,-
+3.000E+01,-,+5.13696E+04,-2.95452E+01,-
+4.000E+01,-,+4.61355E+04,-3.24322E+01,-
+5.000E+01,-,+4.28901E+04,-3.45187E+01,-
+6.000E+01,-,+3.96224E+04,-3.68083E+01,-
+7.000E+01,-,+3.67413E+04,-3.82397E+01,-
+8.000E+01,-,+3.45515E+04,-3.94710E+01,-
+9.000E+01,-,+3.25821E+04,-4.05485E+01,-
+1.000E+02,-,+3.09708E+04,-4.15697E+01,-
+1.000E+01,-,+6.68247E+04,-1.95517E+01,-
+2.000E+01,-,+5.62273E+04,-2.61656E+01,-
+3.000E+01,-,+4.94071E+04,-3.00699E+01,-
+4.000E+01,-,+4.47884E+04,-3.31395E+01,-
+5.000E+01,-,+4.05937E+04,-3.57844E+01,-
+6.000E+01,-,+3.77772E+04,-3.73875E+01,-
+7.000E+01,-,+3.50664E+04,-3.88018E+01,-
+8.000E+01,-,+3.27021E+04,-4.00111E+01,-
+9.000E+01,-,+3.08121E+04,-4.11928E+01,-
+1.000E+02,-,+2.91910E+04,-4.21790E+01,-
+1.000E+01,-,+6.45958E+04,-2.01588E+01,-
+2.000E+01,-,+5.34742E+04,-2.69952E+01,-
+3.000E+01,-,+4.67815E+04,-3.11922E+01,-
+4.000E+01,-,+4.19449E+04,-3.38508E+01,-
+5.000E+01,-,+3.84186E+04,-3.61434E+01,-
+6.000E+01,-,+3.60839E+04,-3.82310E+01,-
+7.000E+01,-,+3.39467E+04,-3.96417E+01,-
+8.000E+01,-,+3.18473E+04,-4.09282E+01,-
+9.000E+01,-,+2.97684E+04,-4.17357E+01,-
+1.000E+02,-,+2.81090E+04,-4.24568E+01,-
+1.000E+01,-,+5.94168E+04,-1.90469E+01,-
+2.000E+01,-,+5.04396E+04,-2.57132E+01,-
+3.000E+01,-,+4.45853E+04,-3.00081E+01,-
+4.000E+01,-,+4.02765E+04,-3.35568E+01,-
+5.000E+01,-,+3.71893E+04,-3.57036E+01,-
+6.000E+01,-,+3.43491E+04,-3.76423E+01,-
+7.000E+01,-,+3.19769E+04,-3.92000E+01,-
+8.000E+01,-,+3.00579E+04,-4.04995E+01,-
+9.000E+01,-,+2.85525E+04,-4.15082E+01,-
+1.000E+02,-,+2.70263E+04,-4.24925E+01,-
+1.000E+01,-,+6.07825E+04,-1.99548E+01,-
+2.000E+01,-,+5.12053E+04,-2.69958E+01,-
+3.000E+01,-,+4.52550E+04,-3.12635E+01,-