Folder: Validation-of-textile-electrodes-for-FES/Data

Note: README.md
# Validation of textile electrodes for FES application

Mini reproducible demo for Elastatrode™ textile electrode validation.

## What is in this repo
- `project_sheet.pdf` — one-page project summary (high-level, non-sensitive).
- `analysis.py` — Python script that parses selected LCR CSVs, computes per-frequency averages, and generates two figures.
- `Data/` — selected CSV exports from the LCR-6300 used in the demo (only a small, representative subset).


## How to run (local)
1. Install Python 3.8+.
2. Create a virtual environment and activate it:
   - Windows (PowerShell):
     ```
     python -m venv .env
     .\.env\Scripts\Activate.ps1
     ```
   - macOS / Linux:
     ```
     python3 -m venv .env
     source .env/bin/activate
     ```
3. Install dependencies:
   ```
   pip install -r requirements.txt
   ```
4. Run the analysis:
   ```
   python analysis.py
   ```
5. Outputs:
   - Figures: `figures/`
   - Processed CSVs: `processed/`

## Notes on data and privacy
- This repo contains a *small, representative subset* of measurement CSVs used for demonstration.
- Do NOT upload raw patient-identifiable data or sensitive clinical records to this public repo.
- If you need the full dataset or the full thesis, contact me — I can produce an anonymized / sanitized export suitable for sharing.

## License
MIT

File: LIST0009.CSV
"LIST MEAS DATA"

"File name","LIST0009.CSV"

"Model","LCR-6300","REV E8.11"

"Log Time","2024-03-27 23:05:34"

"FREQ[Hz]","LMT","Z(OHM)","Phase-d( )","CMP"
+1.000E+01,-,+4.47358E+05,-1.75133E+01,-
+2.000E+01,-,+3.63249E+05,-1.55577E+01,-
+3.000E+01,-,+3.28360E+05,-2.06872E+01,-
+4.000E+01,-,+3.48771E+05,-1.79661E+01,-
+5.000E+01,-,+2.55019E+05,-2.95765E+01,-
+6.000E+01,-,+2.79905E+05,-2.73794E+01,-
+7.000E+01,-,+2.56333E+05,-2.88753E+01,-
+8.000E+01,-,+2.44841E+05,-3.06295E+01,-
+9.000E+01,-,+2.52385E+05,-2.80013E+01,-
+1.000E+02,-,+2.39422E+05,-3.47822E+01,-
+1.000E+01,-,+3.67129E+05,-1.68925E+01,-
+2.000E+01,-,+3.17904E+05,-2.18527E+01,-
+3.000E+01,-,+2.89232E+05,-2.23939E+01,-
+4.000E+01,-,+2.45739E+05,-2.65039E+01,-
+5.000E+01,-,+2.86847E+05,-1.87179E+01,-
+6.000E+01,-,+2.50181E+05,-2.79560E+01,-
+7.000E+01,-,+2.42333E+05,-2.89956E+01,-
+8.000E+01,-,+2.25011E+05,-2.97792E+01,-
+9.000E+01,-,+2.25821E+05,-3.39511E+01,-
+1.000E+02,-,+2.22121E+05,-3.40985E+01,-
+1.000E+01,-,+3.39030E+05,-1.68991E+01,-
+2.000E+01,-,+2.91325E+05,-1.89058E+01,-
+3.000E+01,-,+2.76295E+05,-1.99518E+01,-
+4.000E+01,-,+2.83435E+05,-2.88778E+01,-
+5.000E+01,-,+2.46284E+05,-3.47207E+01,-
+6.000E+01,-,+2.33322E+05,-2.88549E+01,-
+7.000E+01,-,+2.20272E+05,-2.89924E+01,-
+8.000E+01,-,+2.18206E+05,-3.05933E+01,-
+9.000E+01,-,+1.93123E+05,-3.41492E+01,-
+1.000E+02,-,+1.98435E+05,-3.31402E+01,-
+1.000E+01,-,+3.19895E+05,-1.70626E+01,-
+2.000E+01,-,+2.81816E+05,-1.89813E+01,-
+3.000E+01,-,+2.51321E+05,-2.50368E+01,-
+4.000E+01,-,+2.21594E+05,-1.88062E+01,-
+5.000E+01,-,+2.07711E+05,-2.05601E+01,-
+6.000E+01,-,+2.11525E+05,-2.88279E+01,-
+7.000E+01,-,+1.97493E+05,-3.12641E+01,-
+8.000E+01,-,+1.96041E+05,-3.17647E+01,-
+9.000E+01,-,+1.97778E+05,-3.20434E+01,-
+1.000E+02,-,+1.77315E+05,-3.38521E+01,-
+1.000E+01,-,+2.92747E+05,-1.69352E+01,-
+2.000E+01,-,+2.50265E+05,-2.15929E+01,-
+3.000E+01,-,+2.34769E+05,-2.12741E+01,-
+4.000E+01,-,+2.18305E+05,-3.26576E+01,-
+5.000E+01,-,+2.27726E+05,-3.12434E+01,-
+6.000E+01,-,+1.95694E+05,-2.96936E+01,-
+7.000E+01,-,+1.88991E+05,-3.12760E+01,-
+8.000E+01,-,+1.76458E+05,-3.44272E+01,-
+9.000E+01,-,+1.59977E+05,-3.65653E+01,-
+1.000E+02,-,+1.60208E+05,-3.65882E+01,-
+1.000E+01,-,+2.58832E+05,-1.72264E+01,-
+2.000E+01,-,+2.25077E+05,-1.77847E+01,-
+3.000E+01,-,+2.04761E+05,-2.29492E+01,-
+4.000E+01,-,+2.06742E+05,-2.12712E+01,-
+5.000E+01,-,+1.67278E+05,-2.97608E+01,-
+6.000E+01,-,+1.75489E+05,-2.94574E+01,-
+7.000E+01,-,+1.64036E+05,-3.09656E+01,-
+8.000E+01,-,+1.57507E+05,-3.24036E+01,-
+9.000E+01,-,+1.56794E+05,-3.20308E+01,-
+1.000E+02,-,+1.58663E+05,-3.51261E+01,-
+1.000E+01,-,+2.50519E+05,-1.71680E+01,-
+2.000E+01,-,+2.18761E+05,-2.11706E+01,-
+3.000E+01,-,+1.98820E+05,-2.45417E+01,-
+4.000E+01,-,+1.74088E+05,-2.20261E+01,-
+5.000E+01,-,+1.73126E+05,-2.23636E+01,-
+6.000E+01,-,+1.69618E+05,-2.96672E+01,-
+7.000E+01,-,+1.59113E+05,-3.20982E+01,-
+8.000E+01,-,+1.55998E+05,-3.32565E+01,-
+9.000E+01,-,+1.55361E+05,-3.28007E+01,-
+1.000E+02,-,+1.40262E+05,-3.53766E+01,-
+1.000E+01,-,+2.42850E+05,-1.69307E+01,-
+2.000E+01,-,+2.11993E+05,-2.22853E+01,-
+3.000E+01,-,+1.97229E+05,-2.30777E+01,-
+4.000E+01,-,+1.73486E+05,-2.96031E+01,-
+5.000E+01,-,+1.88531E+05,-2.49244E+01,-
+6.000E+01,-,+1.65030E+05,-3.02147E+01,-
+7.000E+01,-,+1.58725E+05,-3.15763E+01,-
+8.000E+01,-,+1.48831E+05,-3.27288E+01,-
+9.000E+01,-,+1.46619E+05,-3.57729E+01,-
+1.000E+02,-,+1.42138E+05,-3.61324E+01,-
+1.000E+01,-,+2.41301E+05,-1.72724E+01,-
+2.000E+01,-,+2.09109E+05,-2.10041E+01,-
+3.000E+01,-,+1.96113E+05,-2.23535E+01,-
+4.000E+01,-,+1.88703E+05,-3.13019E+01,-
+5.000E+01,-,+1.79978E+05,-3.35821E+01,-
+6.000E+01,-,+1.63208E+05,-3.09232E+01,-
+7.000E+01,-,+1.56237E+05,-3.23677E+01,-
+8.000E+01,-,+1.49212E+05,-3.51394E+01,-
+9.000E+01,-,+1.35099E+05,-3.72490E+01,-
+1.000E+02,-,+1.34429E+05,-3.73676E+01,-
+1.000E+01,-,+2.41713E+05,-1.78485E+01,-
+2.000E+01,-,+2.10951E+05,-1.95640E+01,-
+3.000E+01,-,+1.91146E+05,-2.42900E+01,-
+4.000E+01,-,+1.92881E+05,-2.54323E+01,-
+5.000E+01,-,+1.59436E+05,-3.34676E+01,-
+6.000E+01,-,+1.70108E+05,-3.20413E+01,-
+7.000E+01,-,+1.92988E+05,-3.31461E+01,-
+8.000E+01,-,+1.83875E+05,-3.58625E+01,-
+9.000E+01,-,+1.67865E+05,-3.91859E+01,-
+1.000E+02,-,+1.64591E+05,-3.93137E+01,-

File: LIST0022.CSV
"LIST MEAS DATA"

"File name","LIST0022.CSV"

"Model","LCR-6300","REV E8.11"

"Log Time","2024-03-28 00:26:39"

"FREQ[Hz]","LMT","Z(OHM)","Phase-d( )","CMP"
+1.000E+01,-,+3.33127E+08,-4.49115E+01,-
+2.000E+01,-,+3.85145E+06,-9.85601E+01,-
+3.000E+01,-,+5.71978E+06,+1.05659E+02,-
+4.000E+01,-,+1.06295E+06,-1.12729E+02,-
+5.000E+01,-,+1.07705E+06,+1.69449E+02,-
+6.000E+01,-,+8.48620E+07,-3.14046E+01,-
+7.000E+01,-,+5.57582E+06,+1.33491E+02,-
+8.000E+01,-,+5.83936E+06,-1.59496E+02,-
+9.000E+01,-,+1.47829E+06,-6.04462E+01,-
+1.000E+02,-,+5.84499E+06,+3.70522E+00,-
+1.000E+01,-,+4.14534E+08,-1.28353E+02,-
+2.000E+01,-,+1.08948E+07,+1.19841E+02,-
+3.000E+01,-,+3.80952E+06,-8.90023E+01,-
+4.000E+01,-,+1.13060E+06,+2.77126E+01,-
+5.000E+01,-,+1.08669E+06,+4.80910E+01,-
+6.000E+01,-,+8.47437E+07,-1.77732E+02,-
+7.000E+01,-,+1.00469E+07,-9.77527E+01,-
+8.000E+01,-,+6.29621E+06,+8.55626E+01,-
+9.000E+01,-,+2.34912E+06,+1.45588E+02,-
+1.000E+02,-,+6.32446E+06,+9.01164E+01,-
+1.000E+01,-,+2.37484E+08,-6.56680E+00,-
+2.000E+01,-,+7.00403E+06,+4.56239E+01,-
+3.000E+01,-,+5.66947E+06,+7.56422E+01,-
+4.000E+01,-,+1.38743E+06,+1.49668E+02,-
+5.000E+01,-,+1.10614E+06,-7.96339E+01,-
+6.000E+01,-,+7.35329E+07,-6.00223E+01,-
+7.000E+01,-,+5.31946E+06,-9.16780E+00,-
+8.000E+01,-,+7.16401E+06,-2.26637E+01,-
+9.000E+01,-,+2.47723E+06,+8.39181E+01,-
+1.000E+02,-,+5.75167E+06,-1.43752E+02,-
+1.000E+01,-,+3.26464E+08,-3.73936E+01,-
+2.000E+01,-,+3.66919E+06,-1.05980E+02,-
+3.000E+01,-,+1.48930E+07,+1.33159E+02,-
+4.000E+01,-,+1.24133E+06,-7.91122E+01,-
+5.000E+01,-,+1.08473E+06,+1.35201E+02,-
+6.000E+01,-,+2.79177E+08,-3.66007E+01,-
+7.000E+01,-,+4.16157E+06,+1.47098E+02,-
+8.000E+01,-,+7.18876E+06,-6.91028E+01,-
+9.000E+01,-,+2.08118E+06,-8.25430E+01,-
+1.000E+02,-,+5.78490E+06,-1.17106E+02,-
+1.000E+01,-,+2.79619E+08,-1.38931E+02,-
+2.000E+01,-,+3.71291E+06,+6.63685E+01,-
+3.000E+01,-,+1.51133E+07,+8.14374E+00,-
+4.000E+01,-,+1.36805E+06,+1.16361E+02,-
+5.000E+01,-,+1.09317E+06,-6.00003E+01,-
+6.000E+01,-,+1.29964E+08,-7.09576E+01,-
+7.000E+01,-,+5.76288E+06,-9.51244E+00,-
+8.000E+01,-,+8.30876E+06,-1.14767E+01,-
+9.000E+01,-,+4.00281E+06,+5.06594E+01,-
+1.000E+02,-,+6.66442E+06,+1.66128E+02,-
+1.000E+01,-,+2.98277E+08,+5.61979E+01,-
+2.000E+01,-,+6.04591E+06,-1.32028E+02,-
+3.000E+01,-,+5.50058E+06,-1.00743E+02,-
+4.000E+01,-,+1.37157E+06,-4.26496E+00,-
+5.000E+01,-,+1.07249E+06,+7.85439E+01,-
+6.000E+01,-,+8.73674E+07,-1.55393E+02,-
+7.000E+01,-,+1.52138E+07,+1.63863E+02,-
+8.000E+01,-,+7.10450E+06,+4.97328E+01,-
+9.000E+01,-,+3.56247E+06,+1.69284E+02,-
+1.000E+02,-,+6.83557E+06,+1.26432E+02,-
+1.000E+01,-,+3.72690E+09,-1.77778E+02,-
+2.000E+01,-,+7.22818E+06,+4.36566E+01,-
+3.000E+01,-,+5.07121E+06,+8.08071E+01,-
+4.000E+01,-,+1.38250E+06,+1.65255E+02,-
+5.000E+01,-,+1.08699E+06,-9.96306E+01,-
+6.000E+01,-,+3.88134E+07,-7.35355E+01,-
+7.000E+01,-,+5.17441E+06,+2.31961E+01,-
+8.000E+01,-,+7.84074E+06,+5.79984E+01,-
+9.000E+01,-,+3.14047E+06,-1.75474E+01,-
+1.000E+02,-,+6.78604E+06,+1.04888E+02,-
+1.000E+01,-,+6.32985E+08,-6.65650E+01,-
+2.000E+01,-,+1.41025E+07,+1.55153E+02,-
+3.000E+01,-,+3.83708E+06,-9.00470E+01,-
+4.000E+01,-,+1.15600E+06,+2.92879E+01,-
+5.000E+01,-,+1.08497E+06,+3.59174E+01,-
+6.000E+01,-,+9.00900E+07,-1.73238E+02,-
+7.000E+01,-,+5.05923E+06,-8.57941E+01,-
+8.000E+01,-,+8.28077E+06,+1.71398E+02,-
+9.000E+01,-,+1.65149E+06,+1.24672E+02,-
+1.000E+02,-,+6.42124E+06,-3.31546E+01,-
+1.000E+01,-,+2.39402E+08,-3.51451E+01,-
+2.000E+01,-,+3.89336E+06,-9.87884E+01,-
+3.000E+01,-,+7.61249E+06,+1.23305E+02,-
+4.000E+01,-,+1.18930E+06,-9.05869E+01,-
+5.000E+01,-,+1.12757E+06,+1.38437E+02,-
+6.000E+01,-,+1.10307E+08,+1.51754E+02,-
+7.000E+01,-,+5.27411E+06,+1.41192E+02,-
+8.000E+01,-,+8.35528E+06,-2.02165E+01,-
+9.000E+01,-,+3.58523E+06,-1.14609E+02,-
+1.000E+02,-,+6.50666E+06,+1.55239E+02,-
+1.000E+01,-,+1.85334E+08,-6.08769E+01,-
+2.000E+01,-,+6.27924E+06,+4.92479E+01,-
+3.000E+01,-,+4.79490E+06,+8.19504E+01,-
+4.000E+01,-,+1.39663E+06,+1.73382E+02,-
+5.000E+01,-,+1.11060E+06,-1.10444E+02,-
+6.000E+01,-,+5.23170E+07,+7.77487E+00,-
+7.000E+01,-,+6.51306E+06,+4.37052E+01,-
+8.000E+01,-,+7.48585E+06,+9.52142E+01,-
+9.000E+01,-,+1.86271E+06,-4.76860E+01,-
+1.000E+02,-,+6.99822E+06,+3.38648E+01,-

File: LIST0032.CSV
"LIST MEAS DATA"

"File name","LIST0032.CSV"

"Model","LCR-6300","REV E8.11"

"Log Time","2024-03-28 01:07:15"

"FREQ[Hz]","LMT","Z(OHM)","Phase-d( )","CMP"
+1.000E+01,-,+4.21752E+04,-5.69693E+01,-
+2.000E+01,-,+2.62872E+04,-6.24096E+01,-
+3.000E+01,-,+1.93845E+04,-6.53381E+01,-
+4.000E+01,-,+1.56556E+04,-6.65664E+01,-
+5.000E+01,-,+1.31318E+04,-6.74683E+01,-
+6.000E+01,-,+1.13759E+04,-6.88246E+01,-
+7.000E+01,-,+1.00195E+04,-6.94489E+01,-
+8.000E+01,-,+9.03544E+03,-6.93649E+01,-
+9.000E+01,-,+8.21097E+03,-7.00221E+01,-
+1.000E+02,-,+7.57898E+03,-6.92558E+01,-
+1.000E+01,-,+4.24326E+04,-5.70469E+01,-
+2.000E+01,-,+2.62953E+04,-6.25083E+01,-
+3.000E+01,-,+2.01071E+04,-6.22612E+01,-
+4.000E+01,-,+1.56244E+04,-6.72980E+01,-
+5.000E+01,-,+1.31463E+04,-6.84060E+01,-
+6.000E+01,-,+1.13917E+04,-6.88900E+01,-
+7.000E+01,-,+1.00513E+04,-6.95033E+01,-
+8.000E+01,-,+9.01984E+03,-6.97826E+01,-
+9.000E+01,-,+8.35205E+03,-6.77414E+01,-
+1.000E+02,-,+7.56712E+03,-6.97910E+01,-
+1.000E+01,-,+4.26722E+04,-5.71190E+01,-
+2.000E+01,-,+3.27455E+06,+7.97240E+01,-
+3.000E+01,-,+1.96918E+04,-6.51001E+01,-
+4.000E+01,-,+1.57662E+04,-6.63194E+01,-
+5.000E+01,-,+1.34043E+04,-6.72418E+01,-
+6.000E+01,-,+1.15078E+04,-6.88822E+01,-
+7.000E+01,-,+1.01385E+04,-6.95787E+01,-
+8.000E+01,-,+9.09912E+03,-7.01186E+01,-
+9.000E+01,-,+8.31406E+03,-6.99632E+01,-
+1.000E+02,-,+9.47705E+03,-6.86859E+01,-
+1.000E+01,-,+4.29188E+04,-5.71447E+01,-
+2.000E+01,-,+2.65477E+04,-6.28018E+01,-
+3.000E+01,-,+1.97420E+04,-6.53408E+01,-
+4.000E+01,-,+1.57310E+04,-6.70723E+01,-
+5.000E+01,-,+1.33500E+04,-6.83939E+01,-
+6.000E+01,-,+1.16162E+04,-6.62702E+01,-
+7.000E+01,-,+1.02221E+04,-6.87521E+01,-
+8.000E+01,-,+9.10333E+03,-6.99418E+01,-
+9.000E+01,-,+8.28575E+03,-7.03306E+01,-
+1.000E+02,-,+7.60905E+03,-7.01855E+01,-
+1.000E+01,-,+4.29515E+04,-5.71756E+01,-
+2.000E+01,-,+2.66644E+04,-6.23637E+01,-
+3.000E+01,-,+1.97781E+04,-6.52361E+01,-
+4.000E+01,-,+1.58037E+04,-6.72702E+01,-
+5.000E+01,-,+1.72778E+04,-7.20538E+01,-
+6.000E+01,-,+5.44361E+04,-6.76423E+01,-
+7.000E+01,-,+1.02886E+04,-6.94630E+01,-
+8.000E+01,-,+9.26411E+03,-7.00316E+01,-
+9.000E+01,-,+8.42436E+03,-6.97400E+01,-
+1.000E+02,-,+7.72461E+03,-7.06473E+01,-
+1.000E+01,-,+4.69403E+04,-5.31828E+01,-
+2.000E+01,-,+2.72153E+04,-6.25192E+01,-
+3.000E+01,-,+2.00865E+04,-6.53311E+01,-
+4.000E+01,-,+1.62276E+04,-6.65474E+01,-
+5.000E+01,-,+1.35992E+04,-6.75882E+01,-
+6.000E+01,-,+2.07806E+04,-6.31269E+01,-
+7.000E+01,-,+1.12490E+07,-8.85080E+01,-
+8.000E+01,-,+6.21488E+06,+9.49333E+01,-
+9.000E+01,-,+2.20795E+06,+1.39990E+02,-
+1.000E+02,-,+5.55559E+06,+6.23384E+01,-
+1.000E+01,-,+1.89543E+08,-4.07284E+01,-
+2.000E+01,-,+2.70795E+04,-6.24392E+01,-
+3.000E+01,-,+2.01414E+04,-6.51131E+01,-
+4.000E+01,-,+1.60584E+04,-6.72672E+01,-
+5.000E+01,-,+1.35718E+04,-6.82860E+01,-
+6.000E+01,-,+1.17292E+04,-6.88301E+01,-
+7.000E+01,-,+1.03514E+04,-6.95034E+01,-
+8.000E+01,-,+9.29524E+03,-6.98683E+01,-
+9.000E+01,-,+8.45443E+03,-7.03494E+01,-
+1.000E+02,-,+7.74883E+03,-7.05306E+01,-
+1.000E+01,-,+4.35761E+04,-5.70798E+01,-
+2.000E+01,-,+2.69961E+04,-6.25695E+01,-
+3.000E+01,-,+2.01167E+04,-6.49742E+01,-
+4.000E+01,-,+1.60387E+04,-6.69572E+01,-
+5.000E+01,-,+1.40522E+04,-6.31474E+01,-
+6.000E+01,-,+1.17495E+04,-6.83552E+01,-
+7.000E+01,-,+1.03727E+04,-6.90158E+01,-
+8.000E+01,-,+9.31362E+03,-6.93755E+01,-
+9.000E+01,-,+8.49025E+03,-6.95494E+01,-
+1.000E+02,-,+7.78197E+03,-6.96656E+01,-
+1.000E+01,-,+4.35744E+04,-5.70820E+01,-
+2.000E+01,-,+5.44127E+04,-6.32670E+01,-
+3.000E+01,-,+2.03507E+04,-6.52837E+01,-
+4.000E+01,-,+1.64772E+04,-6.63502E+01,-
+5.000E+01,-,+1.39979E+04,-6.73784E+01,-
+6.000E+01,-,+1.21112E+04,-6.86069E+01,-
+7.000E+01,-,+1.07400E+04,-6.93621E+01,-
+8.000E+01,-,+9.66650E+03,-6.98929E+01,-
+9.000E+01,-,+8.92764E+03,-6.76789E+01,-
+1.000E+02,-,+8.06551E+03,-7.04261E+01,-
+1.000E+01,-,+4.50159E+04,-5.66848E+01,-
+2.000E+01,-,+2.81384E+04,-6.21306E+01,-
+3.000E+01,-,+2.07695E+04,-6.50830E+01,-
+4.000E+01,-,+1.68036E+04,-6.63345E+01,-
+5.000E+01,-,+1.40566E+04,-6.74038E+01,-
+6.000E+01,-,+1.93101E+04,-6.85246E+01,-
+7.000E+01,-,+8.84845E+06,-9.11210E+01,-
+8.000E+01,-,+8.97598E+06,+1.26724E+02,-
+9.000E+01,-,+1.65175E+06,+1.26295E+02,-
+1.000E+02,-,+6.66268E+06,-2.75971E+01,-

File: LIST0042.CSV
"LIST MEAS DATA"

"File name","LIST0042.CSV"

"Model","LCR-6300","REV E8.11"

"Log Time","2024-04-03 20:17:56"

"FREQ[Hz]","LMT","Z(OHM)","Phase-d( )","CMP"
+1.000E+01,-,+6.20721E+01,-8.23878E-01,-
+2.000E+01,-,+6.61710E+01,-9.07109E-01,-
+3.000E+01,-,+6.74860E+01,-1.08063E+00,-
+4.000E+01,-,+6.82519E+01,-1.61560E+00,-
+5.000E+01,-,+4.93412E+01,-1.05011E+00,-
+6.000E+01,-,+2.35546E+01,-2.22330E+00,-
+7.000E+01,-,+2.37705E+01,-2.72269E+00,-
+8.000E+01,-,+2.38869E+01,-2.82289E+00,-
+9.000E+01,-,+2.48848E+01,-2.88385E+00,-
+1.000E+02,-,+2.54765E+01,-3.57893E+00,-
+1.000E+01,-,+2.52556E+01,-7.58800E-01,-
+2.000E+01,-,+2.62140E+01,-5.58374E-01,-
+3.000E+01,-,+2.65312E+01,-1.35049E+00,-
+4.000E+01,-,+2.65236E+01,-6.75160E-01,-
+5.000E+01,-,+2.64497E+01,-1.91968E+00,-
+6.000E+01,-,+2.69799E+01,-2.21712E+00,-
+7.000E+01,-,+2.73919E+01,-2.61805E+00,-
+8.000E+01,-,+2.80589E+01,-2.92878E+00,-
+9.000E+01,-,+4.18929E+01,-4.20309E+00,-
+1.000E+02,-,+6.90428E+01,-3.48353E+00,-
+1.000E+01,-,+5.96600E+01,-6.11432E-01,-
+2.000E+01,-,+5.94892E+01,-1.26501E+00,-
+3.000E+01,-,+6.17211E+01,-1.06521E+00,-
+4.000E+01,-,+6.07541E+01,-4.89353E-01,-
+5.000E+01,-,+5.77397E+01,-1.99879E+00,-
+6.000E+01,-,+6.29230E+01,-2.06798E+00,-
+7.000E+01,-,+6.83306E+01,-2.10793E+00,-
+8.000E+01,-,+6.15060E+01,-2.75735E+00,-
+9.000E+01,-,+6.16548E+01,-2.73191E+00,-
+1.000E+02,-,+6.27358E+01,-3.44724E+00,-
+1.000E+01,-,+5.69108E+01,-7.47582E-01,-
+2.000E+01,-,+5.69515E+01,-7.92408E-01,-
+3.000E+01,-,+5.78732E+01,-1.03167E+00,-
+4.000E+01,-,+5.78528E+01,-1.12316E+00,-
+5.000E+01,-,+5.85314E+01,-1.35447E+00,-
+6.000E+01,-,+5.91148E+01,-2.09925E+00,-
+7.000E+01,-,+5.83689E+01,-2.41767E+00,-
+8.000E+01,-,+5.95870E+01,-2.78489E+00,-
+9.000E+01,-,+5.96933E+01,-3.43903E+00,-
+1.000E+02,-,+6.00281E+01,-3.44662E+00,-
+1.000E+01,-,+5.49829E+01,-5.78848E-01,-
+2.000E+01,-,+5.88745E+01,-9.71991E-01,-
+3.000E+01,-,+5.91479E+01,-1.03512E+00,-
+4.000E+01,-,+6.08195E+01,-2.00208E+00,-
+5.000E+01,-,+6.16682E+01,-1.34669E+00,-
+6.000E+01,-,+6.08978E+01,-2.12360E+00,-
+7.000E+01,-,+5.99455E+01,-2.43512E+00,-
+8.000E+01,-,+6.01742E+01,-2.74390E+00,-
+9.000E+01,-,+6.01367E+01,-2.99901E+00,-
+1.000E+02,-,+6.06119E+01,-3.50448E+00,-
+1.000E+01,-,+5.12319E+01,-4.54767E-01,-
+2.000E+01,-,+5.24083E+01,-6.47791E-01,-
+3.000E+01,-,+5.41164E+01,-1.16167E+00,-
+4.000E+01,-,+5.48164E+01,-1.34805E+00,-
+5.000E+01,-,+5.80648E+01,-2.20375E+00,-
+6.000E+01,-,+6.18294E+01,-1.96577E+00,-
+7.000E+01,-,+6.10554E+01,-2.43771E+00,-
+8.000E+01,-,+6.16696E+01,-2.72573E+00,-
+9.000E+01,-,+6.20332E+01,-2.74020E+00,-
+1.000E+02,-,+6.23675E+01,-3.44022E+00,-
+1.000E+01,-,+5.15569E+01,-4.04967E-01,-
+2.000E+01,-,+5.00837E+01,-6.87025E-01,-
+3.000E+01,-,+5.12884E+01,-1.12594E+00,-
+4.000E+01,-,+5.36056E+01,-1.01639E+00,-
+5.000E+01,-,+5.55945E+01,-1.70898E+00,-
+6.000E+01,-,+5.99026E+01,-2.09624E+00,-
+7.000E+01,-,+5.78367E+01,-2.38148E+00,-
+8.000E+01,-,+5.78292E+01,-2.77111E+00,-
+9.000E+01,-,+5.76227E+01,-3.43546E+00,-
+1.000E+02,-,+6.03665E+01,-3.29143E+00,-
+1.000E+01,-,+5.18578E+01,-6.47782E-01,-
+2.000E+01,-,+5.34043E+01,-7.87914E-01,-
+3.000E+01,-,+5.50306E+01,-9.75588E-01,-
+4.000E+01,-,+5.63740E+01,-1.80203E+00,-
+5.000E+01,-,+5.75861E+01,-1.24204E+00,-
+6.000E+01,-,+5.89207E+01,-2.04332E+00,-
+7.000E+01,-,+5.71539E+01,-2.59497E+00,-
+8.000E+01,-,+5.85454E+01,-2.60483E+00,-
+9.000E+01,-,+5.67283E+01,-2.89845E+00,-
+1.000E+02,-,+5.72528E+01,-3.32209E+00,-
+1.000E+01,-,+5.35901E+01,-1.07060E-01,-
+2.000E+01,-,+5.33979E+01,-3.32938E-01,-
+3.000E+01,-,+5.36118E+01,-9.41397E-01,-
+4.000E+01,-,+5.52101E+01,-1.54250E+00,-
+5.000E+01,-,+5.55709E+01,-1.84355E+00,-
+6.000E+01,-,+5.61552E+01,-1.95781E+00,-
+7.000E+01,-,+5.51661E+01,-2.45844E+00,-
+8.000E+01,-,+5.71110E+01,-2.60464E+00,-
+9.000E+01,-,+5.72592E+01,-2.85590E+00,-
+1.000E+02,-,+5.65340E+01,-3.29535E+00,-
+1.000E+01,-,+5.21416E+01,+6.24257E-02,-
+2.000E+01,-,+5.32627E+01,-5.10313E-01,-
+3.000E+01,-,+5.39036E+01,-6.31914E-01,-
+4.000E+01,-,+5.45040E+01,-1.17165E+00,-
+5.000E+01,-,+5.62738E+01,-2.00588E+00,-
+6.000E+01,-,+5.83996E+01,-1.63851E+00,-
+7.000E+01,-,+5.61974E+01,-2.06822E+00,-
+8.000E+01,-,+5.59882E+01,-2.49296E+00,-
+9.000E+01,-,+5.59753E+01,-3.14922E+00,-
+1.000E+02,-,+5.85050E+01,-3.15997E+00,-

File: LIST0052.CSV
"LIST MEAS DATA"

"File name","LIST0052.CSV"

"Model","LCR-6300","REV E8.11"

"Log Time","2024-04-04 21:22:45"

"FREQ[Hz]","LMT","Z(OHM)","Phase-d( )","CMP"
+1.000E+01,-,+1.79013E-01,-8.58575E-01,-
+2.000E+01,-,+2.15903E-01,-2.06547E+01,-
+3.000E+01,-,+1.78783E-01,+1.78575E+01,-
+4.000E+01,-,+1.94176E-01,-6.76434E+01,-
+5.000E+01,-,+3.78201E-01,+4.15372E+01,-
+6.000E+01,-,+1.73544E-01,-2.00686E+00,-
+7.000E+01,-,+9.72514E-02,-1.49064E+01,-
+8.000E+01,-,+2.76925E-01,-1.55487E+01,-
+9.000E+01,-,+1.07864E-01,-4.07239E+01,-
+1.000E+02,-,+2.22181E-01,-6.60190E+01,-
+1.000E+01,-,+1.76676E-01,-1.00536E+00,-
+2.000E+01,-,+1.98000E-01,-3.23832E+01,-
+3.000E+01,-,+1.69483E-01,-8.41992E+00,-
+4.000E+01,-,+4.35823E-01,-3.55057E+01,-
+5.000E+01,-,+5.33403E-01,+1.19523E+00,-
+6.000E+01,-,+1.75134E-01,-4.18916E+00,-
+7.000E+01,-,+2.80712E-01,-9.38367E+00,-
+8.000E+01,-,+2.03881E-01,+4.31701E+01,-
+9.000E+01,-,+2.79366E-01,+4.72723E+01,-
+1.000E+02,-,+3.92511E-01,+8.55847E+01,-
+1.000E+01,-,+1.77666E-01,-8.59737E-01,-
+2.000E+01,-,+1.50302E-01,+2.27785E+01,-
+3.000E+01,-,+1.88517E-01,-2.68055E+01,-
+4.000E+01,-,+5.07885E-01,-5.49402E+00,-
+5.000E+01,-,+4.12777E-01,-3.88850E+01,-
+6.000E+01,-,+1.74038E-01,-4.15295E+00,-
+7.000E+01,-,+2.34666E-01,-4.97441E+00,-
+8.000E+01,-,+9.61160E-02,-3.43672E+01,-
+9.000E+01,-,+3.35603E-01,+3.42531E+01,-
+1.000E+02,-,+3.26585E-01,-3.42997E+00,-
+1.000E+01,-,+1.77517E-01,-1.26512E+00,-
+2.000E+01,-,+2.40504E-01,+6.35099E+01,-
+3.000E+01,-,+2.81178E-01,-4.71509E+01,-
+4.000E+01,-,+6.36334E-01,+4.78187E+01,-
+5.000E+01,-,+6.84990E-01,-9.03477E+01,-
+6.000E+01,-,+1.75198E-01,-1.52731E+00,-
+7.000E+01,-,+2.47808E-01,+8.58035E+01,-
+8.000E+01,-,+6.06720E-01,-3.53383E+01,-
+9.000E+01,-,+5.08078E-01,+2.30530E+01,-
+1.000E+02,-,+4.30558E-01,-8.87059E+01,-
+1.000E+01,-,+1.79588E-01,-1.26610E+00,-
+2.000E+01,-,+2.28373E-01,+3.30032E+01,-
+3.000E+01,-,+2.47290E-01,-3.11310E+00,-
+4.000E+01,-,+6.97163E-01,+1.07392E+02,-
+5.000E+01,-,+5.58536E-01,-1.67034E+02,-
+6.000E+01,-,+1.85009E-01,-4.72773E+00,-
+7.000E+01,-,+3.46569E-01,+1.18864E+00,-
+8.000E+01,-,+4.04468E-01,+8.94013E+01,-
+9.000E+01,-,+4.56869E-01,-7.03045E+01,-
+1.000E+02,-,+5.14324E-01,+7.62014E+01,-
+1.000E+01,-,+1.76490E-01,-1.81726E+00,-
+2.000E+01,-,+3.09856E-01,-3.20456E+01,-
+3.000E+01,-,+2.70334E-01,+4.84321E+01,-
+4.000E+01,-,+4.43748E-01,-1.28287E+02,-
+5.000E+01,-,+7.19796E-01,+7.94033E+01,-
+6.000E+01,-,+1.76036E-01,-3.02891E+00,-
+7.000E+01,-,+1.01571E-01,-1.48949E+02,-
+8.000E+01,-,+2.41531E-01,-3.25131E+01,-
+9.000E+01,-,+1.32066E-01,-6.03237E+01,-
+1.000E+02,-,+2.92156E-01,-2.92048E+01,-
+1.000E+01,-,+1.78242E-01,-9.07153E-01,-
+2.000E+01,-,+2.98833E-01,-4.38739E+01,-
+3.000E+01,-,+1.92010E-01,+3.75405E+01,-
+4.000E+01,-,+4.86616E-01,-1.04604E+02,-
+5.000E+01,-,+7.66645E-01,+6.09132E+01,-
+6.000E+01,-,+1.72053E-01,-2.93288E+00,-
+7.000E+01,-,+1.37376E-01,+1.71770E+02,-
+8.000E+01,-,+6.27031E-01,-4.62444E+01,-
+9.000E+01,-,+2.85675E-01,-1.11031E+02,-
+1.000E+02,-,+5.99343E-01,-4.75621E+01,-
+1.000E+01,-,+1.79317E-01,-1.41040E+00,-
+2.000E+01,-,+3.05729E-01,-4.44182E+01,-
+3.000E+01,-,+1.99628E-01,+4.17631E+01,-
+4.000E+01,-,+4.93939E-01,-1.07025E+02,-
+5.000E+01,-,+7.53349E-01,+6.81233E+01,-
+6.000E+01,-,+1.74097E-01,+5.31089E-01,-
+7.000E+01,-,+1.43385E-01,-1.61497E+02,-
+8.000E+01,-,+5.63327E-01,-6.26571E+01,-
+9.000E+01,-,+3.25535E-01,-1.09410E+02,-
+1.000E+02,-,+6.56598E-01,-1.96815E+01,-
+1.000E+01,-,+1.81589E-01,+1.59319E-01,-
+2.000E+01,-,+3.04385E-01,-4.17237E+01,-
+3.000E+01,-,+2.12323E-01,+4.01207E+01,-
+4.000E+01,-,+4.80062E-01,-1.14567E+02,-
+5.000E+01,-,+7.21819E-01,+7.34065E+01,-
+6.000E+01,-,+1.75074E-01,-6.32345E-01,-
+7.000E+01,-,+1.41623E-01,-1.63176E+02,-
+8.000E+01,-,+5.95183E-01,-5.68928E+01,-
+9.000E+01,-,+3.25101E-01,-1.11642E+02,-
+1.000E+02,-,+6.81710E-01,-2.97911E+01,-
+1.000E+01,-,+1.78040E-01,-8.31236E-01,-
+2.000E+01,-,+1.94300E-01,-1.90098E+01,-
+3.000E+01,-,+1.70790E-01,+8.33646E+00,-
+4.000E+01,-,+2.57168E-01,-5.05331E+01,-
+5.000E+01,-,+3.69200E-01,+1.95786E+01,-
+6.000E+01,-,+2.26613E-01,+1.21129E+01,-
+7.000E+01,-,+1.97213E-01,+8.20877E-01,-
+8.000E+01,-,+1.61778E-01,-2.55057E+01,-
+9.000E+01,-,+2.73868E-01,+2.24733E+01,-
+1.000E+02,-,+2.63954E-01,-8.87761E+00,-

File: LIST0096.CSV
"LIST MEAS DATA"

"File name","LIST0096.CSV"

"Model","LCR-6300","REV E8.11"

"Log Time","2024-04-08 20:44:56"

"FREQ[Hz]","LMT","Z(OHM)","Phase-d( )","CMP"
+1.000E+01,-,+3.30099E+04,-5.99289E+01,-
+2.000E+01,-,+2.01720E+04,-6.46643E+01,-
+3.000E+01,-,+1.48983E+04,-6.70063E+01,-
+4.000E+01,-,+1.19138E+04,-6.84677E+01,-
+5.000E+01,-,+1.00309E+04,-6.95629E+01,-
+6.000E+01,-,+8.65457E+03,-7.03350E+01,-
+7.000E+01,-,+7.65204E+03,-7.08661E+01,-
+8.000E+01,-,+6.84809E+03,-7.13854E+01,-
+9.000E+01,-,+6.21863E+03,-7.17648E+01,-
+1.000E+02,-,+5.71954E+03,-7.19601E+01,-